Folder: switchscope/backend/src/main/resources/db/changelog/csv

Note: README.md
# SwitchScope

> Comprehensive Network Infrastructure Management System

[![License: BSL 1.1](https://img.shields.io/badge/License-BSL%201.1-blue.svg)](LICENSE)
[![Java](https://img.shields.io/badge/Java-21-orange.svg)](https://openjdk.org/)
[![Spring Boot](https://img.shields.io/badge/Spring%20Boot-3.x-green.svg)](https://spring.io/projects/spring-boot)
[![Vue](https://img.shields.io/badge/Vue-3.x-4FC08D.svg)](https://vuejs.org/)
[![PostgreSQL](https://img.shields.io/badge/PostgreSQL-13+-blue.svg)](https://postgresql.org/)

## Overview

SwitchScope is a modern web-based platform designed to provide complete visibility and control over network infrastructure. The system offers comprehensive management of network switches, ports, patch panels, and equipment inventory with real-time monitoring capabilities.

**Perfect for:** Healthcare organizations, educational institutions, enterprise networks, and government facilities seeking professional network infrastructure management without enterprise licensing costs.

## Key Features

### ğŸ” **Infrastructure Discovery & Inventory**
- Automated network device discovery via SNMP
- Complete equipment inventory management
- Physical location tracking with IT closets
- Cable connection mapping and documentation
- Support for copper, fiber, and mixed infrastructures

### ğŸ“Š **Real-time Monitoring**  
- Switch and port status monitoring
- MAC address tracking and history
- DHCP server integration and synchronization
- Historical performance analytics
- Broadcast storm detection and prevention

### âš™ï¸ **Configuration Management**
- Web-based switch configuration interface
- SSH and Telnet device communication
- Role-based access control with multiple permission levels
- Change tracking, auditing, and rollback capabilities
- Configuration backup and automated restore

### ğŸ« **Workflow & Ticketing System**
- Location-based ticket system
- Equipment-specific issue tracking  
- Multi-level approval workflows
- User delegation and task management
- Integration with existing ITSM systems

### ğŸ¥ **Healthcare & Enterprise Ready**
- HIPAA compliance considerations
- Multi-tenant architecture support
- Active Directory/LDAP integration
- Audit trails for regulatory compliance
- 24/7 monitoring capabilities

## Technology Stack

### Backend
- **Java 21** with **Spring Boot 3.x** framework
- **Spring Security** for authentication and authorization
- **Spring Data JPA** for database operations
- **PostgreSQL 13+** database with JSONB support
- **Liquibase** for database version control
- **Redis** for caching and session management
- **SSHJ** for secure device communication
- **ExpectIt** for CLI automation and parsing
- **SNMP4J** for SNMP protocol support

### Frontend  
- **Vue 3** with Composition API
- **Quasar Framework** for professional UI components
- **Pinia** for state management
- **D3.js** and **Vis.js** for network topology visualization
- **Chart.js** for performance analytics
- **Axios** for HTTP cl

File: 80-ports.csv
id;name;description;port_type;equipment_id;connector_id;port_number;port_label;status;admin_status;operational_status;speed_mbps;max_speed_mbps;duplex_mode;auto_negotiation;connector_type;medium_type;access_vlan;native_vlan;port_mode;poe_enabled;poe_class;poe_power_watts;poe_max_power_watts;bytes_in;bytes_out;packets_in;packets_out;errors_in;errors_out;discards_in;discards_out;last_change;last_activity;stats_last_reset;configuration_notes;monitoring_enabled;ethernet_standard;mdi_mdix_mode;cable_length_meters;link_partner_info;fiber_type;wavelength_nm;fiber_standard;transmission_distance_km;tx_power_dbm;rx_power_dbm;optical_loss_db
"01932f00-0080-7000-8000-000000000001";"Gi1/0/1";"Uplink to Core Switch 2";"ETHERNET";"01932f00-0050-7000-8000-000000000005";;1;"Gi1/0/1";"UP";"UP";"UP";10000;10000;"FULL";true;"RJ45";"COPPER";1;1;"TRUNK";false;;;;;;;;;;;"2024-12-01 10:00:00";"2024-12-28 10:00:00";"2024-01-01";"Uplink port";true;"10GBASE-T";"AUTO";5;"Cisco C9200-48P";;;;;;;;
"01932f00-0080-7000-8000-000000000002";"Gi1/0/2";"Server connection";"ETHERNET";"01932f00-0050-7000-8000-000000000005";;2;"Gi1/0/2";"UP";"UP";"UP";1000;1000;"FULL";true;"RJ45";"COPPER";100;1;"ACCESS";false;;;;;;;;;;;"2024-12-01 10:00:00";"2024-12-28 09:55:00";"2024-01-01";"Server 1";true;"1000BASE-T";"AUTO";12;"Dell PowerEdge R740";;;;;;;;
"01932f00-0080-7000-8000-000000000003";"Gi1/0/3";"AP connection";"ETHERNET";"01932f00-0050-7000-8000-000000000005";;3;"Gi1/0/3";"UP";"UP";"UP";1000;1000;"FULL";true;"RJ45";"COPPER";100;1;"ACCESS";true;4;12.5;30;125000000;85000000;950000;720000;0;0;0;0;"2024-12-15 08:00:00";"2024-12-28 10:00:00";"2024-01-01";"PoE for AP";true;"1000BASE-T";"AUTO";25;"Ubiquiti U6-Pro";;;;;;;
"01932f00-0080-7000-8000-000000000004";"Gi1/0/4";"Workstation";"ETHERNET";"01932f00-0050-7000-8000-000000000005";;4;"Gi1/0/4";"UP";"UP";"UP";1000;1000;"FULL";true;"RJ45";"COPPER";10;1;"ACCESS";false;;;50000000;35000000;380000;290000;0;0;0;0;"2024-12-20 09:00:00";"2024-12-28 09:45:00";"2024-01-01";"IT Workstation";true;"1000BASE-T";"AUTO";8;"Intel I219-LM";;;;;;;;
"01932f00-0080-7000-8000-000000000005";"Gi1/0/5";"VoIP Phone";"ETHERNET";"01932f00-0050-7000-8000-000000000005";;5;"Gi1/0/5";"UP";"UP";"UP";100;1000;"FULL";true;"RJ45";"COPPER";110;1;"ACCESS";true;2;7.5;15.4;8500000;6200000;95000;82000;0;0;0;0;"2024-12-18 11:00:00";"2024-12-28 09:58:00";"2024-01-01";"VoIP with PoE";true;"100BASE-TX";"AUTO";15;"Cisco IP Phone 8845";;;;;;;
"01932f00-0080-7000-8000-000000000006";"Gi1/0/6";"Unused";"ETHERNET";"01932f00-0050-7000-8000-000000000005";;6;"Gi1/0/6";"DOWN";"UP";"DOWN";;1000;"FULL";true;"RJ45";"COPPER";;;"ACCESS";false;;;;;;;;;;;;;"2024-01-15";"Available for use";true;"1000BASE-T";"AUTO";;;;;;;;;;
"01932f00-0080-7000-8000-000000000007";"Te1/1/1";"10G SFP+ Uplink";"FIBER";"01932f00-0050-7000-8000-000000000005";;49;"Te1/1/1";"UP";"UP";"UP";10000;10000;"FULL";false;"SFP+";"FIBER";;;"TRUNK";false;;;;;;;;;;;;;"2024-01-15";"10G fiber uplink";true;;;;;"SINGLE_MODE";1310;"10GBASE-LR";10;-2.5;-8.2;5.7;
"01932f00-0080-7000-8000-000000000008";"Te1/1/2";"10G SFP+ Inter-rack";"FIBER";"01932f00-0050-7000-8000-000000000005";;50;"Te1/1/2";"UP";"UP";"UP";10000;10000;"FULL";false;"SFP+";"FIBER";;;"TRUNK";false;;;;;;;;;;;;;"2024-01-16";"Fiber to Rack 2";true;;;;;"SINGLE_MODE";1310;"10GBASE-LR";10;-2.3;-7.8;5.5;
"01932f00-0080-7000-8000-000000000009";"Gi1/0/1";"Uplink to Core Switch 1";"ETHERNET";"01932f00-0050-7000-8000-000000000006";;1;"Gi1/0/1";"UP";"UP";"UP";10000;10000;"FULL";true;"RJ45";"COPPER";1;1;"TRUNK";false;;;;;;;;;;;"2024-12-01 10:00:00";"2024-12-28 10:00:00";"2024-01-01";"Uplink port";true;"10GBASE-T";"AUTO";5;"Cisco C9200-48P";;;;;;;;
"01932f00-0080-7000-8000-000000000010";"Gi1/0/2";"Server connection";"ETHERNET";"01932f00-0050-7000-8000-000000000006";;2;"Gi1/0/2";"UP";"UP";"UP";1000;1000;"FULL";true;"RJ45";"COPPER";100;1;"ACCESS";false;;;;;;;;;;;"2024-12-01 10:00:00";"2024-12-28 09:50:00";"2024-01-01";"Server 2";true;"1000BASE-T";"AUTO";10;"HP ProLiant DL380";;;;;;;;
"01932f00-0080-7000-8000-000000000011";"Gi0/0/0";"WAN Interface 1";"ETHERNET";"01932f00-0050-7000-8000-000000000009";;1;"Gi0/0/0";"UP";"UP";"UP";1000;1000;"FULL";true;"RJ45";"COPPER";;;"ROUTED";false;;;85000000000;92000000000;650000000;710000000;125;89;5;12;"2024-06-01 08:00:00";"2024-12-28 10:00:00";"2024-06-01";"Primary WAN";true;"1000BASE-T";"AUTO";3;"ISP CPE";;;;;;;;
"01932f00-0080-7000-8000-000000000012";"Gi0/0/1";"WAN Interface 2";"ETHERNET";"01932f00-0050-7000-8000-000000000009";;2;"Gi0/0/1";"UP";"UP";"UP";1000;1000;"FULL";true;"RJ45";"COPPER";;;"ROUTED";false;;;45000000000;48000000000;320000000;350000000;45;32;2;8;"2024-06-01 08:00:00";"2024-12-28 10:00:00";"2024-06-01";"Backup WAN";true;"1000BASE-T";"AUTO";5;"ISP2 CPE";;;;;;;;
"01932f00-0080-7000-8000-000000000013";"Gi0/0/2";"LAN Interface";"ETHERNET";"01932f00-0050-7000-8000-000000000009";;3;"Gi0/0/2";"UP";"UP";"UP";1000;1000;"FULL";true;"RJ45";"COPPER";;;"ROUTED";false;;;;;;;;;;;;;"2024-06-01";"Core switch connection";true;"1000BASE-T";"AUTO";2;"Cisco C9200-48P";;;;;;;;
"01932f00-0080-7000-8000-000000000014";"eth0";"WAN";"ETHERNET";"01932f00-0050-7000-8000-000000000010";;1;"eth0";"UP";"UP";"UP";1000;1000;"FULL";true;"RJ45";"COPPER";;;"ROUTED";false;;;12000000000;15000000000;95000000;120000000;5;3;0;2;"2024-08-01 09:00:00";"2024-12-28 10:00:00";"2024-08-01";"WAN uplink";true;"1000BASE-T";"AUTO";8;"Upstream router";;;;;;;;
"01932f00-0080-7000-8000-000000000015";"eth1";"LAN 1";"ETHERNET";"01932f00-0050-7000-8000-000000000010";;2;"eth1";"UP";"UP";"UP";1000;1000;"FULL";true;"RJ45";"COPPER";;;"ROUTED";false;;;;;;;;;;;;;"2024-08-01";"LAN segment 1";true;"1000BASE-T";"AUTO";5;"Ubiquiti USW-24";;;;;;;;
"01932f00-0080-7000-8000-000000000016";"eth2";"LAN 2";"ETHERNET";"01932f00-0050-7000-8000-000000000010";;3;"eth2";"UP";"UP";"UP";1000;1000;"FULL";true;"RJ45";"COPPER";;;"ROUTED";false;;;;;;;;;;;;;"2024-08-01";"LAN segment 2";true;"1000BASE-T";"AUTO";6;;;;;;;;;
"01932f00-0080-7000-8000-000000000017";"eth3";"Unused";"ETHERNET";"01932f00-0050-7000-8000-000000000010";;4;"eth3";"DOWN";"UP";"DOWN";;1000;;true;"RJ45";"COPPER";;;"ROUTED";false;;;;;;;;;;;;;"2024-08-01";"Available";true;"1000BASE-T";"AUTO";;;;;;;;;;
"01932f00-0080-7000-8000-000000000018";"eth0";"PoE Uplink";"ETHERNET";"01932f00-0050-7000-8000-000000000011";;1;"eth0";"UP";"UP";"UP";1000;2500;"FULL";true;"RJ45";"COPPER";100;;"ACCESS";false;;;2500000000;1800000000;18500000;13200000;0;0;0;0;"2024-07-15 14:00:00";"2024-12-28 10:00:00";"2024-07-15";"PoE powered";true;"2.5GBASE-T";"AUTO";28;"Cisco C9200-48P";;;;;;;;
"01932f00-0080-7000-8000-000000000019";"eth0";"PoE Uplink";"ETHERNET";"01932f00-0050-7000-8000-000000000012";;1;"eth0";"UP";"UP";"UP";1000;2500;"FULL";true;"RJ45";"COPPER";100;;"ACCESS";false;;;1800000000;1200000000;14000000;9500000;0;0;0;0;"2024-07-15 16:00:00";"2024-12-28 10:00:00";"2024-07-15";"PoE powered";true;"2.5GBASE-T";"AUTO";35;"Cisco C9200-48P";;;;;;;;
"01932f00-0080-7000-8000-000000000020";"GE0";"PoE Uplink";"ETHERNET";"01932f00-0050-7000-8000-000000000013";;1;"GE0";"UP";"UP";"UP";1000;1000;"FULL";true;"RJ45";"COPPER";100;;"ACCESS";false;;;3500000000;2800000000;28000000;22000000;0;0;0;0;"2024-06-01 10:00:00";"2024-12-28 10:00:00";"2024-06-01";"PoE powered enterprise";true;"1000BASE-T";"AUTO";18;"Cisco C9200-48P";;;;;;;;